shape,colourshape,picture,correctAns,loops.thisRepN,loops.thisTrialN,loops.thisN,loops.thisIndex,newname.thisRepN,newname.thisTrialN,newname.thisN,newname.thisIndex,rules.started,rules.stopped,begin.keys,begin.rt,begin.started,begin.stopped,shapeResp.keys,shapeResp.rt,shapeResp.started,shapeResp.stopped,cross.started,cross.stopped,image.started,image.stopped,text_2.started,text_2.stopped,key_resp_2.keys,key_resp_2.rt,key_resp_2.started,key_resp_2.stopped,cros2.started,cros2.stopped,dimResp.keys,dimResp.rt,dimResp.started,dimResp.stopped,opaque.started,opaque.stopped,ending.started,ending.stopped,participant,session,date,expName,psychopyVersion,frameRate,
,,,,,,,,,,,,17.116430700058118,None,space,14.77938159997575,17.116430700058118,None,,,,,,,,,,,,,,,,,,,,,,,,,10,001,2021_Dec_01_1445,ShapeDimExp,2021.2.3,60.247024866689465,
circle,square.png,circledim.png,right,0,0,0,10,,,,,,,,,,,left,0.736279500182718,32.45791140012443,None,31.957264400087297,32.35949830012396,32.45791140012443,32.5579219001811,,,,,,,,,,,,,,,,,10,001,2021_Dec_01_1445,ShapeDimExp,2021.2.3,60.247024866689465,
square,square.png,squaredim.png,left,0,1,1,26,,,,,,,,,,,left,0.604562200140208,34.956036100164056,None,34.46034730016254,34.8720379001461,34.956036100164056,35.05538180004805,,,,,,,,,,,,,,,,,10,001,2021_Dec_01_1445,ShapeDimExp,2021.2.3,60.247024866689465,
square,square.png,squaredim.png,left,0,2,2,29,,,,,,,,,,,left,0.4174411999993026,37.4555009000469,None,36.96455720020458,37.372218400007114,37.4555009000469,37.55566420010291,,,,,,,,,,,,,,,,,10,001,2021_Dec_01_1445,ShapeDimExp,2021.2.3,60.247024866689465,
circle,square.png,circledim.png,right,0,3,3,13,,,,,,,,,,,left,0.50727319996804,39.93880230002105,None,39.4467505000066,39.85473750019446,39.93880230002105,40.0383421999868,,,,,,,,,,,,,,,,,10,001,2021_Dec_01_1445,ShapeDimExp,2021.2.3,60.247024866689465,
square,circle.png,squaredim.png,left,0,4,4,19,,,,,,,,,,,right,0.6204899000003934,42.437454800121486,None,41.94940540008247,42.35434309998527,42.437454800121486,42.53727750014514,,,,,,,,,,,,,,,,,10,001,2021_Dec_01_1445,ShapeDimExp,2021.2.3,60.247024866689465,
square,square.png,squaredim.png,left,0,5,5,23,,,,,,,,,,,left,1.3429926000535488,44.953597200103104,None,44.46177719999105,44.87023410014808,44.953597200103104,45.05349890002981,,,,,,,,,,,,,,,,,10,001,2021_Dec_01_1445,ShapeDimExp,2021.2.3,60.247024866689465,
circle,square.png,circledim.png,right,0,6,6,14,,,,,,,,,,,left,0.5549584000837058,47.43724480015226,None,46.944874100154266,47.35320010012947,47.43724480015226,47.53682390018366,,,,,,,,,,,,,,,,,10,001,2021_Dec_01_1445,ShapeDimExp,2021.2.3,60.247024866689465,
square,square.png,squaredim.png,left,0,7,7,22,,,,,,,,,,,left,0.3990517999045551,49.95313740009442,None,49.46043960005045,49.869598700199276,49.95313740009442,50.053344500018284,,,,,,,,,,,,,,,,,10,001,2021_Dec_01_1445,ShapeDimExp,2021.2.3,60.247024866689465,
circle,circle.png,circledim.png,right,0,8,8,6,,,,,,,,,,,right,0.5340507000219077,52.43616560008377,None,51.9428386001382,52.35235180007294,52.43616560008377,52.53609549999237,,,,,,,,,,,,,,,,,10,001,2021_Dec_01_1445,ShapeDimExp,2021.2.3,60.247024866689465,
square,square.png,squaredim.png,left,0,9,9,25,,,,,,,,,,,left,0.5642893000040203,54.935348000144586,None,54.4431941001676,54.851568600162864,54.935348000144586,55.03577390010469,,,,,,,,,,,,,,,,,10,001,2021_Dec_01_1445,ShapeDimExp,2021.2.3,60.247024866689465,
circle,square.png,circledim.png,right,0,10,10,7,,,,,,,,,,,left,0.36801610002294183,57.45165320020169,None,56.96832550014369,57.367977200075984,57.45165320020169,57.55180470016785,,,,,,,,,,,,,,,,,10,001,2021_Dec_01_1445,ShapeDimExp,2021.2.3,60.247024866689465,
square,circle.png,squaredim.png,left,0,11,11,21,,,,,,,,,,,right,0.5752049000002444,59.93461180012673,None,59.442930600140244,59.851542700082064,59.93461180012673,60.03435400011949,,,,,,,,,,,,,,,,,10,001,2021_Dec_01_1445,ShapeDimExp,2021.2.3,60.247024866689465,
circle,square.png,circledim.png,right,0,12,12,9,,,,,,,,,,,left,0.5346707000862807,62.43341689999215,None,61.95423260005191,62.36695930012502,62.43341689999215,62.534072200069204,,,,,,,,,,,,,,,,,10,001,2021_Dec_01_1445,ShapeDimExp,2021.2.3,60.247024866689465,
circle,square.png,circledim.png,right,0,13,13,8,,,,,,,,,,,left,0.4714300998020917,64.93299790006131,None,64.44990690005943,64.85002090013586,64.93299790006131,65.03291090019047,,,,,,,,,,,,,,,,,10,001,2021_Dec_01_1445,ShapeDimExp,2021.2.3,60.247024866689465,
circle,circle.png,circledim.png,right,0,14,14,0,,,,,,,,,,,right,0.4874487998895347,67.44959730003029,None,66.95432140002958,67.36567840003408,67.44959730003029,67.54965690011159,,,,,,,,,,,,,,,,,10,001,2021_Dec_01_1445,ShapeDimExp,2021.2.3,60.247024866689465,
square,square.png,squaredim.png,left,0,15,15,24,,,,,,,,,,,left,0.43488329998217523,69.96585150016472,None,69.4860995002091,69.89896030002274,69.96585150016472,70.06579900020733,,,,,,,,,,,,,,,,,10,001,2021_Dec_01_1445,ShapeDimExp,2021.2.3,60.247024866689465,
square,circle.png,squaredim.png,left,0,16,16,18,,,,,,,,,,,right,0.3019662001170218,72.44817330013029,None,71.95128490007482,72.36481280019507,72.44817330013029,72.54893960012123,,,,,,,,,,,,,,,,,10,001,2021_Dec_01_1445,ShapeDimExp,2021.2.3,60.247024866689465,
circle,circle.png,circledim.png,right,0,17,17,2,,,,,,,,,,,left,0.5374504001811147,74.94757140008733,None,74.46583960019052,74.88122189999558,74.94757140008733,75.0483782000374,,,,,,,,,,,,,,,,,10,001,2021_Dec_01_1445,ShapeDimExp,2021.2.3,60.247024866689465,
circle,square.png,circledim.png,right,0,18,18,11,,,,,,,,,,,left,0.5630320000927895,77.44914440019056,None,76.97723140008748,77.38128710002638,77.44914440019056,77.54968250007369,,,,,,,,,,,,,,,,,10,001,2021_Dec_01_1445,ShapeDimExp,2021.2.3,60.247024866689465,
circle,circle.png,circledim.png,right,0,19,19,3,,,,,,,,,,,right,0.4053823999129236,79.93075689999387,None,79.44940590020269,79.86340570007451,79.93075689999387,80.03151360014454,,,,,,,,,,,,,,,,,10,001,2021_Dec_01_1445,ShapeDimExp,2021.2.3,60.247024866689465,
circle,circle.png,circledim.png,right,0,20,20,1,,,,,,,,,,,right,0.4700279999524355,82.44761790009215,81.96183080016635,81.96183080016635,82.3631655999925,82.44761790009215,82.54725980013609,,,,,,,,,,,,,,,,,10,001,2021_Dec_01_1445,ShapeDimExp,2021.2.3,60.247024866689465,
circle,square.png,circledim.png,right,0,21,21,12,,,,,,,,,,,left,0.6188837999943644,84.94621070008725,None,84.46533000003546,84.87910970021039,84.94621070008725,85.04644650011323,,,,,,,,,,,,,,,,,10,001,2021_Dec_01_1445,ShapeDimExp,2021.2.3,60.247024866689465,
square,circle.png,squaredim.png,left,0,22,22,20,,,,,,,,,,,right,0.4288004001136869,87.445527800126,None,86.96578950015828,87.37885280000046,87.445527800126,87.54538180003874,,,,,,,,,,,,,,,,,10,001,2021_Dec_01_1445,ShapeDimExp,2021.2.3,60.247024866689465,
circle,circle.png,circledim.png,right,0,23,23,5,,,,,,,,,,,right,0.3915808000601828,89.94462080020458,None,89.4646961002145,89.8784442001488,89.94462080020458,90.04518070002086,,,,,,,,,,,,,,,,,10,001,2021_Dec_01_1445,ShapeDimExp,2021.2.3,60.247024866689465,
circle,circle.png,circledim.png,right,0,24,24,4,,,,,,,,,,,right,0.5290551001671702,92.46095290011726,None,91.96617150004022,92.37861470016651,92.46095290011726,92.56150500010699,,,,,,,,,,,,,,,,,10,001,2021_Dec_01_1445,ShapeDimExp,2021.2.3,60.247024866689465,
square,circle.png,squaredim.png,left,0,25,25,17,,,,,,,,,,,right,0.46892210002988577,94.94433349999599,None,94.46343370014802,94.87716490007006,94.94433349999599,95.04447240009904,,,,,,,,,,,,,,,,,10,001,2021_Dec_01_1445,ShapeDimExp,2021.2.3,60.247024866689465,
square,square.png,squaredim.png,left,0,26,26,28,,,,,,,,,,,left,0.5525533000472933,97.46001200005412,None,96.96510820020922,97.37730630021542,97.46001200005412,97.56210930016823,,,,,,,,,,,,,,,,,10,001,2021_Dec_01_1445,ShapeDimExp,2021.2.3,60.247024866689465,
square,square.png,squaredim.png,left,0,27,27,27,,,,,,,,,,,left,0.5562118999660015,99.94295640010387,None,99.45514239999466,99.86078410013579,99.94295640010387,100.04391400003806,,,,,,,,,,,,,,,,,10,001,2021_Dec_01_1445,ShapeDimExp,2021.2.3,60.247024866689465,
square,circle.png,squaredim.png,left,0,28,28,16,,,,,,,,,,,right,0.46768269990570843,102.443564100191,None,101.96124229999259,102.37569510005414,102.443564100191,102.54233249998651,,,,,,,,,,,,,,,,,10,001,2021_Dec_01_1445,ShapeDimExp,2021.2.3,60.247024866689465,
square,circle.png,squaredim.png,left,0,29,29,15,,,,,,,,,,,right,0.9426758999470621,104.94179930002429,None,104.4579702001065,104.8588007001672,104.94179930002429,105.04241990018636,,,,,,,,,,,,,,,,,10,001,2021_Dec_01_1445,ShapeDimExp,2021.2.3,60.247024866689465,
,,,,,,,,,,,,,,,,,,,,,,,,,,106.94440879998729,None,space,13.689212800003588,106.94440879998729,None,,,,,,,,,,,10,001,2021_Dec_01_1445,ShapeDimExp,2021.2.3,60.247024866689465,
circle,square.png,circledim.png,right,,,,,0,0,0,11,,,,,,,,,,,,,,,,,,,,,120.67356450017542,121.08905740012415,right,1.1993975001387298,121.35602010018192,None,121.35602010018192,121.55645480006933,,,10,001,2021_Dec_01_1445,ShapeDimExp,2021.2.3,60.247024866689465,
circle,circle.png,circledim.png,right,,,,,0,1,1,0,,,,,,,,,,,,,,,,,,,,,123.15795940021053,123.5716618001461,right,0.5722211999818683,123.85489820013754,123.15795940021053,123.85489820013754,124.05505300010554,,,10,001,2021_Dec_01_1445,ShapeDimExp,2021.2.3,60.247024866689465,
circle,square.png,circledim.png,right,,,,,0,2,2,8,,,,,,,,,,,,,,,,,,,,,125.66528389998712,126.0716496000532,right,0.5566401998512447,126.35494990018196,125.66528389998712,126.35494990018196,126.55446110013872,,,10,001,2021_Dec_01_1445,ShapeDimExp,2021.2.3,60.247024866689465,
square,square.png,squaredim.png,left,,,,,0,3,3,23,,,,,,,,,,,,,,,,,,,,,128.1755290001165,128.5875262999907,left,0.6741225000005215,128.85412580007687,128.1755290001165,128.85412580007687,129.05381599999964,,,10,001,2021_Dec_01_1445,ShapeDimExp,2021.2.3,60.247024866689465,
square,square.png,squaredim.png,left,,,,,0,4,4,29,,,,,,,,,,,,,,,,,,,,,130.67234480008483,131.08785230014473,left,0.6591804998461157,131.35399460000917,130.67234480008483,131.35399460000917,131.55402760021389,,,10,001,2021_Dec_01_1445,ShapeDimExp,2021.2.3,60.247024866689465,
square,circle.png,squaredim.png,left,,,,,0,5,5,15,,,,,,,,,,,,,,,,,,,,,133.16485900012776,133.56979860016145,left,0.5518072000704706,133.83647450013086,133.16485900012776,133.83647450013086,134.03637820016593,,,10,001,2021_Dec_01_1445,ShapeDimExp,2021.2.3,60.247024866689465,
square,circle.png,squaredim.png,left,,,,,0,6,6,19,,,,,,,,,,,,,,,,,,,,,135.64072410017252,136.05322900018655,left,0.3685455000959337,136.33754060021602,135.64072410017252,136.33754060021602,136.55321849999018,,,10,001,2021_Dec_01_1445,ShapeDimExp,2021.2.3,60.247024866689465,
circle,circle.png,circledim.png,right,,,,,0,7,7,2,,,,,,,,,,,,,,,,,,,,,138.16309510008432,138.56892790016718,right,0.4583662000950426,138.85220510000363,138.16309510008432,138.85220510000363,139.05225430009887,,,10,001,2021_Dec_01_1445,ShapeDimExp,2021.2.3,60.247024866689465,
circle,square.png,circledim.png,right,,,,,0,8,8,12,,,,,,,,,,,,,,,,,,,,,140.66540010017343,141.06841230019927,right,0.5330198998562992,141.35267440020107,140.66540010017343,141.35267440020107,141.55236269999295,,,10,001,2021_Dec_01_1445,ShapeDimExp,2021.2.3,60.247024866689465,
circle,circle.png,circledim.png,right,,,,,0,9,9,4,,,,,,,,,,,,,,,,,,,,,143.1692420002073,143.56883380003273,right,0.6491241999901831,143.8518356999848,None,143.8518356999848,144.05150560010225,,,10,001,2021_Dec_01_1445,ShapeDimExp,2021.2.3,60.247024866689465,
square,circle.png,squaredim.png,left,,,,,0,10,10,17,,,,,,,,,,,,,,,,,,,,,145.6553499000147,146.06807260005735,left,0.5813798001036048,146.3509393001441,145.6553499000147,146.3509393001441,146.55092710000463,,,10,001,2021_Dec_01_1445,ShapeDimExp,2021.2.3,60.247024866689465,
square,square.png,squaredim.png,left,,,,,0,11,11,24,,,,,,,,,,,,,,,,,,,,,148.1571355999913,148.56681240000762,left,0.6470935998950154,148.85145140020177,148.1571355999913,148.85145140020177,149.05068430001847,,,10,001,2021_Dec_01_1445,ShapeDimExp,2021.2.3,60.247024866689465,
square,circle.png,squaredim.png,left,,,,,0,12,12,18,,,,,,,,,,,,,,,,,,,,,150.67136849998496,151.08328000013717,left,0.9506345998961478,151.36663830000907,None,151.36663830000907,151.56672280002385,,,10,001,2021_Dec_01_1445,ShapeDimExp,2021.2.3,60.247024866689465,
square,square.png,squaredim.png,left,,,,,0,13,13,27,,,,,,,,,,,,,,,,,,,,,153.17142360005528,153.58256640005857,left,0.5013284001033753,153.8661084000487,None,153.8661084000487,154.06568850018084,,,10,001,2021_Dec_01_1445,ShapeDimExp,2021.2.3,60.247024866689465,
square,square.png,squaredim.png,left,,,,,0,14,14,28,,,,,,,,,,,,,,,,,,,,,155.66823479998857,156.08225270011462,left,0.5178054000716656,156.34944550017826,None,156.34944550017826,156.5487567000091,,,10,001,2021_Dec_01_1445,ShapeDimExp,2021.2.3,60.247024866689465,
square,circle.png,squaredim.png,left,,,,,0,15,15,20,,,,,,,,,,,,,,,,,,,,,158.16331530013122,158.56684050010517,left,0.408026099903509,158.83418610016815,158.16331530013122,158.83418610016815,159.04893510020338,,,10,001,2021_Dec_01_1445,ShapeDimExp,2021.2.3,60.247024866689465,
square,square.png,squaredim.png,left,,,,,0,16,16,26,,,,,,,,,,,,,,,,,,,,,160.6524023001548,161.06479850015603,left,0.4525800000410527,161.3316590001341,160.6524023001548,161.3316590001341,161.53207220020704,,,10,001,2021_Dec_01_1445,ShapeDimExp,2021.2.3,60.247024866689465,
circle,circle.png,circledim.png,right,,,,,0,17,17,1,,,,,,,,,,,,,,,,,,,,,163.1378298001364,163.54739410011098,right,0.5576487998478115,163.83142310008407,163.1378298001364,163.83142310008407,164.031334400177,,,10,001,2021_Dec_01_1445,ShapeDimExp,2021.2.3,60.247024866689465,
circle,circle.png,circledim.png,right,,,,,0,18,18,6,,,,,,,,,,,,,,,,,,,,,165.65107170003466,166.0635590001475,left,0.5210977999959141,166.3479862001259,165.65107170003466,166.3479862001259,166.54694610019214,,,10,001,2021_Dec_01_1445,ShapeDimExp,2021.2.3,60.247024866689465,
circle,circle.png,circledim.png,right,,,,,0,19,19,5,,,,,,,,,,,,,,,,,,,,,168.16041690018028,168.56331610004418,right,0.992469800170511,168.8476313999854,168.16041690018028,168.8476313999854,169.04637450003065,,,10,001,2021_Dec_01_1445,ShapeDimExp,2021.2.3,60.247024866689465,
circle,square.png,circledim.png,right,,,,,0,20,20,13,,,,,,,,,,,,,,,,,,,,,170.66932420013472,171.07943859999068,right,0.5364817001391202,171.36721870000474,None,171.36721870000474,171.58126810006797,,,10,001,2021_Dec_01_1445,ShapeDimExp,2021.2.3,60.247024866689465,
square,circle.png,squaredim.png,left,,,,,0,21,21,16,,,,,,,,,,,,,,,,,,,,,173.16399100003764,173.5793072001543,left,0.47403349983505905,173.84590140008368,None,173.84590140008368,174.04640630003996,,,10,001,2021_Dec_01_1445,ShapeDimExp,2021.2.3,60.247024866689465,
circle,square.png,circledim.png,right,,,,,0,22,22,9,,,,,,,,,,,,,,,,,,,,,175.64870160003193,176.0616243002005,right,0.5549393999390304,176.3456941000186,175.64870160003193,176.3456941000186,176.54780350020155,,,10,001,2021_Dec_01_1445,ShapeDimExp,2021.2.3,60.247024866689465,
circle,square.png,circledim.png,right,,,,,0,23,23,10,,,,,,,,,,,,,,,,,,,,,178.1489472000394,178.56120260013267,left,0.43967330013401806,178.84629240003414,178.1489472000394,178.84629240003414,179.0619306000881,,,10,001,2021_Dec_01_1445,ShapeDimExp,2021.2.3,60.247024866689465,
square,circle.png,squaredim.png,left,,,,,0,24,24,21,,,,,,,,,,,,,,,,,,,,,180.67451750021428,181.07723470008932,left,0.46696029999293387,181.3446900001727,None,181.3446900001727,181.54476870014332,,,10,001,2021_Dec_01_1445,ShapeDimExp,2021.2.3,60.247024866689465,
square,square.png,squaredim.png,left,,,,,0,25,25,22,,,,,,,,,,,,,,,,,,,,,183.15507080010138,183.5600155000575,left,0.7341546998359263,183.84363190014847,183.15507080010138,183.84363190014847,184.04383249999955,,,10,001,2021_Dec_01_1445,ShapeDimExp,2021.2.3,60.247024866689465,
circle,circle.png,circledim.png,right,,,,,0,26,26,3,,,,,,,,,,,,,,,,,,,,,185.65514540020376,186.05943200015463,right,0.7430139998905361,186.3426512000151,185.65514540020376,186.3426512000151,186.54372690012679,,,10,001,2021_Dec_01_1445,ShapeDimExp,2021.2.3,60.247024866689465,
circle,square.png,circledim.png,right,,,,,0,27,27,14,,,,,,,,,,,,,,,,,,,,,188.14606960001402,188.55898239999078,right,1.4556569000706077,188.84304050006904,188.14606960001402,188.84304050006904,189.04295959998854,,,10,001,2021_Dec_01_1445,ShapeDimExp,2021.2.3,60.247024866689465,
square,square.png,squaredim.png,left,,,,,0,28,28,25,,,,,,,,,,,,,,,,,,,,,190.6520905001089,191.058588600019,left,0.6121982999611646,191.3446874001529,190.6520905001089,191.3446874001529,191.5583278001286,,,10,001,2021_Dec_01_1445,ShapeDimExp,2021.2.3,60.247024866689465,
circle,square.png,circledim.png,right,,,,,0,29,29,7,,,,,,,,,,,,,,,,,,,,,193.16024690004997,193.5747599999886,right,0.5675301000010222,193.84213550016284,193.16024690004997,193.84213550016284,194.04257849999703,,,10,001,2021_Dec_01_1445,ShapeDimExp,2021.2.3,60.247024866689465,
,,,,,,,,,,,,,,,,,,,,,,,,,,,,,,,,,,,,,,,,195.6438164000865,None,,,,,,,
