shape,colourshape,picture,correctAns,loops.thisRepN,loops.thisTrialN,loops.thisN,loops.thisIndex,newname.thisRepN,newname.thisTrialN,newname.thisN,newname.thisIndex,rules.started,rules.stopped,begin.keys,begin.rt,begin.started,begin.stopped,shapeResp.keys,shapeResp.rt,shapeResp.started,shapeResp.stopped,cross.started,cross.stopped,image.started,image.stopped,text_2.started,text_2.stopped,key_resp_2.keys,key_resp_2.rt,key_resp_2.started,key_resp_2.stopped,cros2.started,cros2.stopped,dimResp.keys,dimResp.rt,dimResp.started,dimResp.stopped,opaque.started,opaque.stopped,ending.started,ending.stopped,participant,session,date,expName,psychopyVersion,frameRate
,,,,,,,,,,,,19.5827948,None,space,15.509431,19.5827948,None,,,,,,,,,,,,,,,,,,,,,,,,,11,1,2021_Dec_01_1455,ShapeDimExp,2021.2.3,60.15775767
square,circle.png,squaredim.png,left,0,0,0,19,,,,,,,,,,,right,0.4545297,35.633653,None,35.1426356,35.5468342,35.633653,35.7469383,,,,,,,,,,,,,,,,,11,1,2021_Dec_01_1455,ShapeDimExp,2021.2.3,60.15775767
circle,circle.png,circledim.png,right,0,1,1,1,,,,,,,,,,,right,0.3653707,38.1462639,None,37.6601527,38.0629887,38.1462639,38.2463862,,,,,,,,,,,,,,,,,11,1,2021_Dec_01_1455,ShapeDimExp,2021.2.3,60.15775767
circle,circle.png,circledim.png,right,0,2,2,2,,,,,,,,,,,right,0.3426859,40.6292924,None,40.1442754,40.546043,40.6292924,40.7295417,,,,,,,,,,,,,,,,,11,1,2021_Dec_01_1455,ShapeDimExp,2021.2.3,60.15775767
circle,square.png,circledim.png,right,0,3,3,9,,,,,,,,,,,right,0.3606274,43.1452041,None,42.6543691,43.0624296,43.1452041,43.2451529,,,,,,,,,,,,,,,,,11,1,2021_Dec_01_1455,ShapeDimExp,2021.2.3,60.15775767
square,circle.png,squaredim.png,left,0,4,4,20,,,,,,,,,,,right,0.3647208,45.6282352,None,45.1321508,45.5453565,45.6282352,45.7284521,,,,,,,,,,,,,,,,,11,1,2021_Dec_01_1455,ShapeDimExp,2021.2.3,60.15775767
square,circle.png,squaredim.png,left,0,5,5,21,,,,,,,,,,,right,0.4048285,48.1277546,None,47.6402121,48.0442433,48.1277546,48.2281921,,,,,,,,,,,,,,,,,11,1,2021_Dec_01_1455,ShapeDimExp,2021.2.3,60.15775767
circle,circle.png,circledim.png,right,0,6,6,3,,,,,,,,,,,right,0.3343368,50.6276606,None,50.1353462,50.5437056,50.6276606,50.7269088,,,,,,,,,,,,,,,,,11,1,2021_Dec_01_1455,ShapeDimExp,2021.2.3,60.15775767
circle,circle.png,circledim.png,right,0,7,7,4,,,,,,,,,,,right,0.304941,53.126497,None,52.6333664,53.0432342,53.126497,53.2271847,,,,,,,,,,,,,,,,,11,1,2021_Dec_01_1455,ShapeDimExp,2021.2.3,60.15775767
square,square.png,squaredim.png,left,0,8,8,28,,,,,,,,,,,left,0.3245865,55.6103193,None,55.1363679,55.5432727,55.6103193,55.7110288,,,,,,,,,,,,,,,,,11,1,2021_Dec_01_1455,ShapeDimExp,2021.2.3,60.15775767
circle,square.png,circledim.png,right,0,9,9,12,,,,,,,,,,,left,0.5027355,58.1088475,57.6219589,57.6219589,58.0258644,58.1088475,58.2097367,,,,,,,,,,,,,,,,,11,1,2021_Dec_01_1455,ShapeDimExp,2021.2.3,60.15775767
square,square.png,squaredim.png,left,0,10,10,26,,,,,,,,,,,left,0.3688285,60.6088984,60.1291987,60.1291987,60.5421798,60.6088984,60.7083774,,,,,,,,,,,,,,,,,11,1,2021_Dec_01_1455,ShapeDimExp,2021.2.3,60.15775767
circle,square.png,circledim.png,right,0,11,11,11,,,,,,,,,,,left,0.3360508,63.1086655,62.6177279,62.6177279,63.0248127,63.1086655,63.2092476,,,,,,,,,,,,,,,,,11,1,2021_Dec_01_1455,ShapeDimExp,2021.2.3,60.15775767
circle,circle.png,circledim.png,right,0,12,12,6,,,,,,,,,,,left,0.3093934,65.6075084,65.1174572,65.1174572,65.525016,65.6075084,65.70807,,,,,,,,,,,,,,,,,11,1,2021_Dec_01_1455,ShapeDimExp,2021.2.3,60.15775767
circle,circle.png,circledim.png,right,0,13,13,0,,,,,,,,,,,right,0.4521515,68.1069923,67.6171896,67.6171896,68.0244954,68.1069923,68.2074374,,,,,,,,,,,,,,,,,11,1,2021_Dec_01_1455,ShapeDimExp,2021.2.3,60.15775767
square,square.png,squaredim.png,left,0,14,14,29,,,,,,,,,,,left,0.4941652,70.6232822,70.1267491,70.1267491,70.5406867,70.6232822,70.7238373,,,,,,,,,,,,,,,,,11,1,2021_Dec_01_1455,ShapeDimExp,2021.2.3,60.15775767
square,circle.png,squaredim.png,left,0,15,15,15,,,,,,,,,,,left,0.3440865,73.1233428,None,72.6279628,73.0395243,73.1233428,73.222876,,,,,,,,,,,,,,,,,11,1,2021_Dec_01_1455,ShapeDimExp,2021.2.3,60.15775767
square,square.png,squaredim.png,left,0,16,16,27,,,,,,,,,,,right,0.3027459,75.6228921,None,75.1396496,75.5387647,75.6228921,75.7228214,,,,,,,,,,,,,,,,,11,1,2021_Dec_01_1455,ShapeDimExp,2021.2.3,60.15775767
square,square.png,squaredim.png,left,0,17,17,23,,,,,,,,,,,left,0.3804122,78.1220237,None,77.6259517,78.0390383,78.1220237,78.2215811,,,,,,,,,,,,,,,,,11,1,2021_Dec_01_1455,ShapeDimExp,2021.2.3,60.15775767
circle,square.png,circledim.png,right,0,18,18,10,,,,,,,,,,,left,0.459488,80.6223762,None,80.13177,80.5384961,80.6223762,80.7385114,,,,,,,,,,,,,,,,,11,1,2021_Dec_01_1455,ShapeDimExp,2021.2.3,60.15775767
circle,circle.png,circledim.png,right,0,19,19,5,,,,,,,,,,,right,0.3898109,83.1217991,None,82.6268163,83.0381146,83.1217991,83.2376552,,,,,,,,,,,,,,,,,11,1,2021_Dec_01_1455,ShapeDimExp,2021.2.3,60.15775767
square,square.png,squaredim.png,left,0,20,20,22,,,,,,,,,,,left,0.417757,85.6039299,None,85.1312915,85.5370799,85.6039299,85.7036731,,,,,,,,,,,,,,,,,11,1,2021_Dec_01_1455,ShapeDimExp,2021.2.3,60.15775767
circle,square.png,circledim.png,right,0,21,21,8,,,,,,,,,,,left,0.4275019,88.1038722,87.6116622,87.6116622,88.0198873,88.1038722,88.2042195,,,,,,,,,,,,,,,,,11,1,2021_Dec_01_1455,ShapeDimExp,2021.2.3,60.15775767
circle,square.png,circledim.png,right,0,22,22,7,,,,,,,,,,,left,0.4156288,90.6031679,90.1100689,90.1100689,90.5197443,90.6031679,90.7033394,,,,,,,,,,,,,,,,,11,1,2021_Dec_01_1455,ShapeDimExp,2021.2.3,60.15775767
square,circle.png,squaredim.png,left,0,23,23,16,,,,,,,,,,,right,0.3662579,93.10327,92.617813,92.617813,93.0192707,93.10327,93.2024306,,,,,,,,,,,,,,,,,11,1,2021_Dec_01_1455,ShapeDimExp,2021.2.3,60.15775767
circle,square.png,circledim.png,right,0,24,24,14,,,,,,,,,,,left,0.3003564,95.6016716,95.1109128,95.1109128,95.5186134,95.6016716,95.7022146,,,,,,,,,,,,,,,,,11,1,2021_Dec_01_1455,ShapeDimExp,2021.2.3,60.15775767
square,circle.png,squaredim.png,left,0,25,25,17,,,,,,,,,,,right,0.3168225,98.1012917,97.6095581,97.6095581,98.0180525,98.1012917,98.2012521,,,,,,,,,,,,,,,,,11,1,2021_Dec_01_1455,ShapeDimExp,2021.2.3,60.15775767
square,square.png,squaredim.png,left,0,26,26,25,,,,,,,,,,,left,0.2701434,100.6175768,100.126635,100.126635,100.5344279,100.6175768,100.7177339,,,,,,,,,,,,,,,,,11,1,2021_Dec_01_1455,ShapeDimExp,2021.2.3,60.15775767
square,circle.png,squaredim.png,left,0,27,27,18,,,,,,,,,,,right,0.3521696,103.1168406,102.628062,102.628062,103.0337375,103.1168406,103.2170341,,,,,,,,,,,,,,,,,11,1,2021_Dec_01_1455,ShapeDimExp,2021.2.3,60.15775767
circle,square.png,circledim.png,right,0,28,28,13,,,,,,,,,,,left,0.3940909,105.6163613,105.1255796,105.1255796,105.5336353,105.6163613,105.7173094,,,,,,,,,,,,,,,,,11,1,2021_Dec_01_1455,ShapeDimExp,2021.2.3,60.15775767
square,square.png,squaredim.png,left,0,29,29,24,,,,,,,,,,,left,0.4672363,108.11657,107.6326149,107.6326149,108.0327837,108.11657,108.2161742,,,,,,,,,,,,,,,,,11,1,2021_Dec_01_1455,ShapeDimExp,2021.2.3,60.15775767
,,,,,,,,,,,,,,,,,,,,,,,,,,110.1202839,None,space,10.4358641,110.1202839,None,,,,,,,,,,,11,1,2021_Dec_01_1455,ShapeDimExp,2021.2.3,60.15775767
circle,circle.png,circledim.png,right,,,,,0,0,0,0,,,,,,,,,,,,,,,,,,,,,120.5988105,121.0138583,right,0.3676829,121.2807246,None,121.2807246,121.4806499,,,11,1,2021_Dec_01_1455,ShapeDimExp,2021.2.3,60.15775767
square,square.png,squaredim.png,left,,,,,0,1,1,25,,,,,,,,,,,,,,,,,,,,,123.0954116,123.4977242,left,0.3782588,123.7801199,123.0954116,123.7801199,123.9811471,,,11,1,2021_Dec_01_1455,ShapeDimExp,2021.2.3,60.15775767
circle,square.png,circledim.png,right,,,,,0,2,2,14,,,,,,,,,,,,,,,,,,,,,125.5812717,125.996276,right,0.2755272,126.2630854,125.5812717,126.2630854,126.4626307,,,11,1,2021_Dec_01_1455,ShapeDimExp,2021.2.3,60.15775767
square,square.png,squaredim.png,left,,,,,0,3,3,29,,,,,,,,,,,,,,,,,,,,,128.0646115,128.4789448,left,0.3354324,128.7460901,128.0646115,128.7460901,128.9453674,,,11,1,2021_Dec_01_1455,ShapeDimExp,2021.2.3,60.15775767
circle,square.png,circledim.png,right,,,,,0,4,4,13,,,,,,,,,,,,,,,,,,,,,130.5642561,130.9784931,right,0.2987485,131.2448232,130.5642561,131.2448232,131.4450351,,,11,1,2021_Dec_01_1455,ShapeDimExp,2021.2.3,60.15775767
square,square.png,squaredim.png,left,,,,,0,5,5,26,,,,,,,,,,,,,,,,,,,,,133.0493487,133.4614677,left,0.2918403,133.745396,133.0493487,133.745396,133.944367,,,11,1,2021_Dec_01_1455,ShapeDimExp,2021.2.3,60.15775767
circle,square.png,circledim.png,right,,,,,0,6,6,12,,,,,,,,,,,,,,,,,,,,,135.5626797,135.9779418,right,0.26112,136.2442331,135.5626797,136.2442331,136.4444718,,,11,1,2021_Dec_01_1455,ShapeDimExp,2021.2.3,60.15775767
square,square.png,squaredim.png,left,,,,,0,7,7,27,,,,,,,,,,,,,,,,,,,,,138.0467267,138.4605968,left,0.2902474,138.7433672,138.0467267,138.7433672,138.9433978,,,11,1,2021_Dec_01_1455,ShapeDimExp,2021.2.3,60.15775767
circle,square.png,circledim.png,right,,,,,0,8,8,11,,,,,,,,,,,,,,,,,,,,,140.5456495,140.9601391,right,0.3315216,141.2431257,140.5456495,141.2431257,141.4429805,,,11,1,2021_Dec_01_1455,ShapeDimExp,2021.2.3,60.15775767
square,circle.png,squaredim.png,left,,,,,0,9,9,18,,,,,,,,,,,,,,,,,,,,,143.0639285,143.4758573,left,0.6022599,143.7424683,143.0639285,143.7424683,143.9424703,,,11,1,2021_Dec_01_1455,ShapeDimExp,2021.2.3,60.15775767
circle,circle.png,circledim.png,right,,,,,0,10,10,6,,,,,,,,,,,,,,,,,,,,,145.5493701,145.9593718,right,0.3497574,146.2421138,145.5493701,146.2421138,146.4420715,,,11,1,2021_Dec_01_1455,ShapeDimExp,2021.2.3,60.15775767
circle,square.png,circledim.png,right,,,,,0,11,11,9,,,,,,,,,,,,,,,,,,,,,148.0517151,148.4585018,left,0.3430584,148.7421006,148.0517151,148.7421006,148.9416524,,,11,1,2021_Dec_01_1455,ShapeDimExp,2021.2.3,60.15775767
square,circle.png,squaredim.png,left,,,,,0,12,12,15,,,,,,,,,,,,,,,,,,,,,150.5527043,150.9588277,right,0.3429364,151.2423165,150.5527043,151.2423165,151.4425268,,,11,1,2021_Dec_01_1455,ShapeDimExp,2021.2.3,60.15775767
square,circle.png,squaredim.png,left,,,,,0,13,13,16,,,,,,,,,,,,,,,,,,,,,153.0637207,153.4753366,left,0.505415,153.7584259,153.0637207,153.7584259,153.9607012,,,11,1,2021_Dec_01_1455,ShapeDimExp,2021.2.3,60.15775767
square,circle.png,squaredim.png,left,,,,,0,14,14,20,,,,,,,,,,,,,,,,,,,,,155.5625231,155.9745812,left,0.3814075,156.257952,155.5625231,156.257952,156.458468,,,11,1,2021_Dec_01_1455,ShapeDimExp,2021.2.3,60.15775767
circle,circle.png,circledim.png,right,,,,,0,15,15,2,,,,,,,,,,,,,,,,,,,,,158.0755192,158.4899336,right,0.3897849,158.7565271,158.0755192,158.7565271,158.9567122,,,11,1,2021_Dec_01_1455,ShapeDimExp,2021.2.3,60.15775767
circle,square.png,circledim.png,right,,,,,0,16,16,10,,,,,,,,,,,,,,,,,,,,,160.5675141,160.9730187,right,0.3743114,161.2576633,160.5675141,161.2576633,161.473988,,,11,1,2021_Dec_01_1455,ShapeDimExp,2021.2.3,60.15775767
circle,circle.png,circledim.png,right,,,,,0,17,17,5,,,,,,,,,,,,,,,,,,,,,163.0717344,163.4737063,right,0.3863027,163.7557388,163.0717344,163.7557388,163.9565967,,,11,1,2021_Dec_01_1455,ShapeDimExp,2021.2.3,60.15775767
square,square.png,squaredim.png,left,,,,,0,18,18,24,,,,,,,,,,,,,,,,,,,,,165.5586038,165.9735164,left,0.3023472,166.2550098,165.5586038,166.2550098,166.455329,,,11,1,2021_Dec_01_1455,ShapeDimExp,2021.2.3,60.15775767
circle,circle.png,circledim.png,right,,,,,0,19,19,3,,,,,,,,,,,,,,,,,,,,,168.0684355,168.4716095,right,0.334673,168.7550996,168.0684355,168.7550996,168.9548867,,,11,1,2021_Dec_01_1455,ShapeDimExp,2021.2.3,60.15775767
square,circle.png,squaredim.png,left,,,,,0,20,20,19,,,,,,,,,,,,,,,,,,,,,170.5702532,170.9709789,left,0.3071297,171.2541463,170.5702532,171.2541463,171.4546905,,,11,1,2021_Dec_01_1455,ShapeDimExp,2021.2.3,60.15775767
square,circle.png,squaredim.png,left,,,,,0,21,21,21,,,,,,,,,,,,,,,,,,,,,173.0562887,173.4702299,right,0.3327339,173.7374056,173.0562887,173.7374056,173.9552109,,,11,1,2021_Dec_01_1455,ShapeDimExp,2021.2.3,60.15775767
square,circle.png,squaredim.png,left,,,,,0,22,22,17,,,,,,,,,,,,,,,,,,,,,175.5466797,175.9529966,left,0.3570788,176.2386916,175.5466797,176.2386916,176.453191,,,11,1,2021_Dec_01_1455,ShapeDimExp,2021.2.3,60.15775767
square,square.png,squaredim.png,left,,,,,0,23,23,28,,,,,,,,,,,,,,,,,,,,,178.0587108,178.4699586,right,0.3666845,178.7537849,178.0587108,178.7537849,178.9542695,,,11,1,2021_Dec_01_1455,ShapeDimExp,2021.2.3,60.15775767
circle,square.png,circledim.png,right,,,,,0,24,24,7,,,,,,,,,,,,,,,,,,,,,180.576251,180.985443,right,0.3366287,181.268764,180.576251,181.268764,181.469336,,,11,1,2021_Dec_01_1455,ShapeDimExp,2021.2.3,60.15775767
circle,circle.png,circledim.png,right,,,,,0,25,25,4,,,,,,,,,,,,,,,,,,,,,183.0821117,183.4863932,right,0.3494851,183.7691007,183.0821117,183.7691007,183.969201,,,11,1,2021_Dec_01_1455,ShapeDimExp,2021.2.3,60.15775767
square,square.png,squaredim.png,left,,,,,0,26,26,22,,,,,,,,,,,,,,,,,,,,,185.570439,185.9844633,left,0.3718027,186.2552187,185.570439,186.2552187,186.4688528,,,11,1,2021_Dec_01_1455,ShapeDimExp,2021.2.3,60.15775767
circle,square.png,circledim.png,right,,,,,0,27,27,8,,,,,,,,,,,,,,,,,,,,,188.0720882,188.4844645,right,0.4181839,188.7672704,188.0720882,188.7672704,188.968319,,,11,1,2021_Dec_01_1455,ShapeDimExp,2021.2.3,60.15775767
circle,circle.png,circledim.png,right,,,,,0,28,28,1,,,,,,,,,,,,,,,,,,,,,190.570489,190.9836068,right,0.4108531,191.2499828,190.570489,191.2499828,191.4514745,,,11,1,2021_Dec_01_1455,ShapeDimExp,2021.2.3,60.15775767
square,square.png,squaredim.png,left,,,,,0,29,29,23,,,,,,,,,,,,,,,,,,,,,193.0528912,193.4668994,left,0.4492751,193.7332255,193.0528912,193.7332255,193.9337825,,,11,1,2021_Dec_01_1455,ShapeDimExp,2021.2.3,60.15775767
,,,,,,,,,,,,,,,,,,,,,,,,,,,,,,,,,,,,,,,,195.5341018,None,,,,,,
